{
    "resourceType": "Bundle",
    "id": "ClaimResponseDocument-example-01",
    "meta": {
      "versionId": "1",
      "lastUpdated": "2021-12-22T15:32:26.605+05:30"
    },
    "timestamp": "2021-12-22T15:32:26.605+05:30",
    "identifier": {
      "system": "urn:ietf:rfc:3986",
      "value": "urn:uuiad:9699444a"
    },
    "type": "document",
    "entry": [
      {
        "fullUrl": "Composition/1",
        "resource": {
          "resourceType": "Composition",
          "id": "1",
          "date": "2021-12-22T15:32:26.605+05:30",
          "meta": {
            "versionId": "1",
            "lastUpdated": "2021-12-22T15:32:26.605+05:30"
          },
          "identifier": {
            "system": "urn:ietf:rfc:3986",
            "value": "urn:uuid:28b6b35e"
          },
          "status": "final",
          "type": {
            "coding": [
              {
                "system": "https://hcx.org/document-types",
                "code": "HCXClaimResponse",
                "display": "Claim Response"
              }
            ],
            "text": "Claim Response"
          },
          "subject": {
            "reference": "Patient/1",
            "display": "Hina Patel"
          },
          "author": [
            {
              "reference": "Practitioner/1",
              "display": "Dr. Sudhir Naik (PMJAY Gujrat)"
            }
          ],
          "title": "Claim Request",
          "attester": [
            {
              "mode": "official",
              "time": "2021-12-22T14:10:14Z",
              "party": {
                "reference": "Organization/2",
                "display": "PMJAY, MoHFW, Govt Of India"
              }
            }
          ],
          "section": [
            {
              "title": "Claim Response",
              "code": {
                "text": "ClaimResponse",
                "coding": [
                  {
                    "system": "https://www.hl7.org/fhir/valueset-resource-types",
                    "code": "ClaimResponse",
                    "display": "Claim Response"
                  }
                ]
              },
              "entry": [
                {
                  "reference": "ClaimResponse/res-id-1"
                }
              ]
            }
          ]
        }
      },
      {
        "fullUrl": "ClaimResponse/ress-id-1",
        "resource": {
    "resourceType": "ClaimResponse",
    "id": "1355110",
    "meta": {
      "versionId": "1",
      "lastUpdated": "2020-07-03T22:50:39.698+00:00",
      "source": "#JrkobxCRdZUI6QNh"
    },
    "status": "active",
    "type": {
      "coding": [ {
        "code": "institutional"
      } ]
    },
    "use": "preauthorization",
    "patient": {
      "reference": "Patient/1353519",
      "type": "Patient"
    },
    "created": "2020-07-03T18:50:39-04:00",
    "insurer": {
      "reference": "Organization/185",
      "type": "Organization"
    },
    "request": {
      "reference": "Claim/1355109"
    },
    "outcome": "complete",
    "item": [
      {
        "itemSequence": 1,
        "adjudication": [
          {
            "category": {
              "coding": [
                {
                  "code": "eligible"
                }
              ]
            },
            "amount": {
              "value": 500000,
              "currency": "INR"
            }
          },
          {
            "category": {
              "coding": [
                {
                  "code": "copay"
                }
              ]
            },
            "amount": {
              "value": 50000,
              "currency": "INR"
            }
          },
          {
            "category": {
              "coding": [
                {
                  "code": "eligpercent"
                }
              ]
            },
            "value": 80.00
          },
          {
            "category": {
              "coding": [
                {
                  "code": "benefit"
                }
              ]
            },
            "reason": {
              "coding": [
                {
                  "system": "http://terminology.hl7.org/CodeSystem/adjudication-reason",
                  "code": "ar002",
                  "display": "Plan Limit Reached"
                }
              ]
            },
            "amount": {
              "value": 360000,
              "currency": "INR"
            }
          }
        ]
      }
    ],
    "total": [
      {
        "category": {
          "coding": [
            {
              "code": "submitted"
            }
          ]
        },
        "amount": {
          "value": 500000,
          "currency": "INR"
        }
      },
      {
        "category": {
          "coding": [
            {
              "code": "benefit"
            }
          ]
        },
        "amount": {
          "value": 360000,
          "currency": "INR"
        }
      }
    ],
    "payment": {
      "type": {
        "coding": [
          {
            "system": "http://terminology.hl7.org/CodeSystem/ex-paymenttype",
            "code": "complete"
          }
        ]
      },
      "date": "2014-08-31",
      "amount": {
        "value": 410000,
        "currency": "INR"
      },
      "identifier": {
        "system": "http://www.BenefitsInc.com/fhir/paymentidentifier",
        "value": "201408-2-1569478"
      }
    }
  }
      },
      {
        "fullUrl": "Patient/1",
        "resource": {
          "resourceType": "Patient",
          "id": "1",
          "name": [
            {
              "use": "official",
              "family": "Patel",
              "given": [
                "Hina"
              ]
            }
          ],
          "identifier": [
            {
              "type": {
                "coding": [
                  {
                    "system": "http://ndhm.gov.in/ValueSet/identifier-type",
                    "code": "PHRADDR"
                  }
                ]
              },
              "system": "http://ndhm.gov.in/healthId",
              "value": "654321"
            },
            {
              "type": {
                "coding": [
                  {
                    "system": "http://ndhm.gov.in/ValueSet/identifier-type",
                    "code": "PMJAYID"
                  }
                ]
              },
              "system": "http://ndhm.gov.in/pmjay",
              "value": "QWRT12345"
            }
          ],
          "gender": "female",
          "birthDate": "1974-12-25"
        }
      },
      {
        "fullUrl": "Organization/MaxSaket01",
        "resource": {
          "resourceType": "Organization",
          "id": "MaxSaket01",
          "name": "Max Super Speciality Hospital, Saket",
          "identifier": [
            {
              "system": "https://ndhm.gov.in/hfr",
              "value": "HFR-10000005"
            }
          ]
        }
      },
      {
        "fullUrl": "Organization/2",
        "resource": {
          "resourceType": "Organization",
          "id": "2",
          "name": "PMJAY, MoHFW, Govt Of India",
          "identifier": [
            {
              "system": "https://hcx.org/orgs",
              "value": "PMJAY"
            }
          ]
        }
      },
      {
        "fullUrl": "Practitioner/1",
        "resource": {
          "resourceType": "Practitioner",
          "id": "1",
          "identifier": [
            {
              "system": "https://ndhm.gov.in/npr",
              "value": "NPR-6897"
            }
          ],
          "name": [
            {
              "text": "Sudhir Naik (PMJAY Gujrat)",
              "prefix": [
                "Dr"
              ],
              "suffix": [
                "MD"
              ]
            }
          ]
        }
      }
    ]
  }