{
    "resourceType": "Bundle",
    "id": "CoverageEligibilityRequestDocument-example-01",
    "meta": {
      "lastUpdated": "2022-02-08T21:49:55.458+05:30"
    },
    "identifier": {
      "system": "https://www.tmh.in/bundle",
      "value": "CoverageEligibilityRequestDocument-example-01"
    },
    "type": "document",
    "timestamp": "2022-02-08T21:49:55.458+05:30",
    "entry": [{
      "fullUrl": "Composition/42ff4a07-3e36-402f-a99e-29f16c0c9eee",
      "resource": {
        "resourceType": "Composition",
        "id": "42ff4a07-3e36-402f-a99e-29f16c0c9eee",
        "identifier": {
          "system": "https://www.tmh.in/hcx-documents",
          "value": "42ff4a07-3e36-402f-a99e-29f16c0c9eee"
        },
        "status": "final",
        "type": {
          "coding": [{
            "system": "https://www.hcx.org/document-type",
            "code": "HcxCoverageEligibilityRequest",
            "display": "Coverage Eligibility Request Doc"
          }]
        },
        "subject": {
          "reference": "Patient/RVH1003"
        },
        "date": "2022-02-08T21:49:55+05:30",
        "author": [{
          "reference": "Organization/Tmh01"
        }],
        "title": "Coverage Eligibility Request",
        "section": [{
          "title": "# Eligibility Request",
          "code": {
            "text": "CoverageEligibilityRequest",
            "coding": [{
              "system": "http://hl7.org/fhir/ValueSet/resource-types",
              "code": "CoverageEligibilityRequest",
              "display": "Coverage Eligibility Request"
            }]
          },
          "entry": [{
            "reference": "CoverageEligibilityRequest/dc82673b-8c71-48c2-8a17-16dcb3b035f6"
          }]
        }]
      }
    },
      {
        "fullUrl": "Organization/Tmh01",
        "resource": {
          "resourceType": "Organization",
          "id": "Tmh01",
          "identifier": [{
            "system": "http://abdm.gov.in/facilities",
            "value": "HFR-ID-FOR-TMH"
          },
            {
              "system": "http://irdai.gov.in/facilities",
              "value": "IRDA-ID-FOR-TMH"
            }
          ],
          "name": "Tata Memorial Hospital",
          "alias": [
            "TMH",
            "TMC"
          ],
          "telecom": [{
            "system": "phone",
            "value": "(+91) 022-2417-7000"
          }],
          "address": [{
            "line": [
              "Dr Ernest Borges Rd, Parel East, Parel, Mumbai, Maharashtra 400012"
            ],
            "city": "Mumbai",
            "state": "Maharashtra",
            "postalCode": "400012",
            "country": "INDIA"
          }],
          "endpoint": [{
            "reference": "https://www.tmc.gov.in/",
            "display": "Website"
          }]
        }
      },
      {
        "fullUrl": "Patient/RVH1003",
        "resource": {
          "resourceType": "Patient",
          "id": "RVH1003",
          "identifier": [{
            "type": {
              "coding": [{
                "system": "http://terminology.hl7.org/CodeSystem/v2-0203",
                "code": "SN",
                "display": "Subscriber Number"
              }]
            },
            "system": "http://gicofIndia.com/beneficiaries",
            "value": "BEN-101"
          },
            {
              "system": "http://abdm.gov.in/patients",
              "value": "hinapatel@abdm"
            }
          ],
          "name": [{
            "text": "Hina Patel"
          }],
          "gender": "female"
        }
      },
      {
        "fullUrl": "CoverageEligibilityRequest/dc82673b-8c71-48c2-8a17-16dcb3b035f6",
        "resource": {
          "resourceType": "CoverageEligibilityRequest",
          "id": "dc82673b-8c71-48c2-8a17-16dcb3b035f6",
          "identifier": [{
            "system": "https://www.tmh.in/coverage-eligibility-request",
            "value": "dc82673b-8c71-48c2-8a17-16dcb3b035f6"
          }],
          "status": "active",
          "purpose": [
            "discovery"
          ],
          "patient": {
            "reference": "Patient/RVH1003"
          },
          "servicedPeriod": {
            "start": "2022-02-07T21:49:56+05:30",
            "end": "2022-02-09T21:49:56+05:30"
          },
          "created": "2022-02-08T21:49:56+05:30",
          "provider": {
            "reference": "Organization/Tmh01"
          },
          "insurer": {
            "reference": "Organization/GICOFINDIA"
          },
          "insurance": [{
            "focal": true,
            "coverage": {
              "reference": "Coverage/dadde132-ad64-4d18-8c18-1d52d7e86abc"
            }
          }]
        }
      },
      {
        "fullUrl": "Organization/GICOFINDIA",
        "resource": {
          "resourceType": "Organization",
          "id": "GICOFINDIA",
          "identifier": [{
            "system": "http://irdai.gov.in/insurers",
            "value": "112"
          }],
          "name": "General Insurance Corporation of India"
        }
      },
      {
        "fullUrl": "Coverage/dadde132-ad64-4d18-8c18-1d52d7e86abc",
        "resource": {
          "resourceType": "Coverage",
          "id": "dadde132-ad64-4d18-8c18-1d52d7e86abc",
          "identifier": [{
            "system": "https://www.gicofIndia.in/policies",
            "value": "policy-RVH1003"
          }],
          "status": "active",
          "subscriber": {
            "reference": "Patient/RVH1003"
          },
          "subscriberId": "SN-RVH1003",
          "beneficiary": {
            "reference": "Patient/RVH1003"
          },
          "relationship": {
            "coding": [{
              "system": "http://hl7.org/fhir/ValueSet/subscriber-relationship",
              "code": "self"
            }]
          },
          "payor": [{
            "reference": "Organization/GICOFINDIA"
          }]
        }
      }
    ]
  }